dataset,item,expected_differences,explanation
ADSL,TRT01A,12,"Actual treatment from DM.ACTARM (12 subjects randomised to high dose received low dose); the pilot sets TRT01A = TRT01P."
ADSL,TRT01AN,12,"Follows TRT01A."
ADAE,TRTA,19,"Follows ADSL.TRT01A: the 19 events of the 12 subjects whose actual treatment differs."
ADAE,TRTAN,19,"Follows TRTA."
ADAE,ASTDT,11,"Year-only onset dates are imputed to 1 January (ASTDTF = 'M'); the pilot leaves them missing."
ADAE,ASTDTF,11,"Follows ASTDT: 'M' for the 11 year-only dates."
ADAE,ASTDY,11,"Follows ASTDT."
ADAE,ADURN,4,"Duration is computed when the start day was imputed (subject 01-716-1418); the pilot leaves it missing. ASTDTF identifies these records."
ADLB,(records only in ours),12,"Every LB record of the five parameters is kept; the pilot omits 12 records of 4 subjects at AMBUL ECG REMOVAL, RETRIEVAL and one BASELINE visit."
ADLB,ABLFL,226,"Baseline is the last non-missing value on or before first dose; the pilot uses the SDTM baseline flag (LBBLFL, SCREENING 1)."
ADLB,BASE,773,"Follows ABLFL: a different baseline record gives a different BASE, including 15 subject-parameters without an SDTM baseline flag."
ADLB,CHG,706,"Follows BASE, and CHG is only derived after first dose; the pilot also derives it on pre-dose records."
ADLB,ANRIND,437,"ANRIND compares AVAL with the normal range (ANRLO/ANRHI); the pilot reports 'N' for 432 values outside that range and for the 5 values below the limit of quantification."
ADLB,BNRIND,568,"Follows ABLFL and ANRIND."
ADTTE,TRTA,12,"Follows ADSL.TRT01A."
ADTTE,TRTAN,12,"Follows TRTA."
ADQSADAS,ADT,33,"LOCF records carry the date of the analysed record whose value is carried; the pilot gives the date of a later, non-analysed record in the earlier window. AVAL is identical."
ADQSADAS,ADY,33,"Follows ADT."
ADQSADAS,QSSEQ,33,"Follows ADT."
ADQSADAS,(LOCF records all),19,"The pilot additionally marks 19 non-analysed records (a second record in the same window, ANL01FL missing) as DTYPE = 'LOCF'."
